Opt. Const. of Gen-Osc vs. nm
Wavelength (nm)	n	k
245.776154	1.677799	0.008064
247.357712	1.676141	0.008042
248.939362	1.674525	0.008020
250.521072	1.672948	0.007997
252.102859	1.671410	0.007975
253.684723	1.669909	0.007952
255.266678	1.668444	0.007929
256.848694	1.667013	0.007906
258.430786	1.665616	0.007882
260.012939	1.664252	0.007859
261.595184	1.662919	0.007836
263.177490	1.661616	0.007812
264.759857	1.660343	0.007789
266.342346	1.659099	0.007765
267.924866	1.657882	0.007741
269.507477	1.656692	0.007718
271.090149	1.655528	0.007694
272.672882	1.654390	0.007670
274.255676	1.653275	0.007646
275.838562	1.652185	0.007622
277.421509	1.651117	0.007598
279.004547	1.650072	0.007574
280.587616	1.649049	0.007550
282.170776	1.648047	0.007526
283.753998	1.647066	0.007503
285.337280	1.646104	0.007479
286.920654	1.645162	0.007455
288.504089	1.644238	0.007431
290.087555	1.643333	0.007407
291.671112	1.642446	0.007383
293.254730	1.641576	0.007359
294.838409	1.640723	0.007335
296.422180	1.639887	0.007312
298.005981	1.639066	0.007288
299.589844	1.638261	0.007264
301.173767	1.637472	0.007241
302.757782	1.636697	0.007217
304.341858	1.635936	0.007193
305.925964	1.635190	0.007170
307.510162	1.634457	0.007147
309.094391	1.633738	0.007123
310.678680	1.633031	0.007100
312.263062	1.632337	0.007077
313.847473	1.631656	0.007053
315.431946	1.630987	0.007030
317.016510	1.630329	0.007007
318.601105	1.629683	0.006984
320.185730	1.629049	0.006961
321.770447	1.628425	0.006938
323.355225	1.627812	0.006916
324.940063	1.627209	0.006893
326.524963	1.626617	0.006870
328.109863	1.626034	0.006848
329.694885	1.625462	0.006825
331.279907	1.624898	0.006803
332.865021	1.624344	0.006781
334.450165	1.623800	0.006758
336.035370	1.623264	0.006736
337.620636	1.622737	0.006714
339.205933	1.622218	0.006692
340.791321	1.621708	0.006670
342.376709	1.621205	0.006649
343.962189	1.620711	0.006627
345.547699	1.620225	0.006605
347.133240	1.619746	0.006584
348.718872	1.619274	0.006562
350.304535	1.618810	0.006541
351.890259	1.618353	0.006520
353.476013	1.617903	0.006499
355.061829	1.617460	0.006477
356.647675	1.617024	0.006456
358.233582	1.616594	0.006436
359.819550	1.616170	0.006415
361.405548	1.615753	0.006394
362.991577	1.615342	0.006373
364.577698	1.614938	0.006353
366.163818	1.614539	0.006333
367.749969	1.614145	0.006312
369.336212	1.613758	0.006292
370.922485	1.613376	0.006272
372.508789	1.613000	0.006252
374.095154	1.612629	0.006232
375.681519	1.612263	0.006212
377.267975	1.611902	0.006192
378.854431	1.611547	0.006172
380.440979	1.611197	0.006153
382.027527	1.610851	0.006133
383.614105	1.610510	0.006114
385.200745	1.610174	0.006095
386.787445	1.609842	0.006075
388.374146	1.609515	0.006056
389.960907	1.609193	0.006037
391.547699	1.608874	0.006018
393.134552	1.608560	0.005999
394.721405	1.608250	0.005981
396.308289	1.607945	0.005962
397.895264	1.607643	0.005943
399.482239	1.607346	0.005925
401.069244	1.607052	0.005906
402.656311	1.606762	0.005888
404.243378	1.606476	0.005870
405.830505	1.606193	0.005852
407.417664	1.605915	0.005834
409.004822	1.605639	0.005816
410.592041	1.605368	0.005798
412.179291	1.605099	0.005780
413.766541	1.604835	0.005762
415.353912	1.604573	0.005745
416.941223	1.604315	0.005727
418.528625	1.604060	0.005710
420.116028	1.603808	0.005692
421.703461	1.603559	0.005675
423.290924	1.603313	0.005658
424.878418	1.603071	0.005641
426.465912	1.602831	0.005624
428.053467	1.602594	0.005607
429.641052	1.602360	0.005590
431.228668	1.602129	0.005573
432.816315	1.601901	0.005557
434.403961	1.601675	0.005540
435.991638	1.601452	0.005523
437.579346	1.601232	0.005507
439.167084	1.601014	0.005491
440.754822	1.600799	0.005474
442.342621	1.600586	0.005458
443.930420	1.600376	0.005442
445.518250	1.600168	0.005426
447.106110	1.599963	0.005410
448.694000	1.599760	0.005394
450.281891	1.599559	0.005379
451.869812	1.599361	0.005363
453.457764	1.599165	0.005347
455.045715	1.598971	0.005332
456.633698	1.598779	0.005316
458.221680	1.598590	0.005301
459.809723	1.598402	0.005285
461.397766	1.598217	0.005270
462.985840	1.598034	0.005255
464.573883	1.597852	0.005240
466.162018	1.597673	0.005225
467.750092	1.597496	0.005210
469.338226	1.597321	0.005195
470.926361	1.597147	0.005180
472.514557	1.596975	0.005166
474.102722	1.596806	0.005151
475.690918	1.596638	0.005136
477.279144	1.596472	0.005122
478.867340	1.596307	0.005107
480.455566	1.596145	0.005093
482.043854	1.595984	0.005079
483.632141	1.595825	0.005065
485.220367	1.595667	0.005050
486.808685	1.595512	0.005036
488.396973	1.595357	0.005022
489.985291	1.595205	0.005008
491.573578	1.595054	0.004995
493.161957	1.594904	0.004981
494.750305	1.594756	0.004967
496.338623	1.594610	0.004953
497.927002	1.594465	0.004940
499.515381	1.594321	0.004926
501.103760	1.594180	0.004913
502.692139	1.594039	0.004899
504.280518	1.593900	0.004886
505.868958	1.593762	0.004873
507.457336	1.593626	0.004860
509.045746	1.593491	0.004846
510.634186	1.593357	0.004833
512.222595	1.593225	0.004820
513.811035	1.593094	0.004807
515.399475	1.592964	0.004795
516.987915	1.592835	0.004782
518.576355	1.592708	0.004769
520.164795	1.592582	0.004756
521.753296	1.592458	0.004744
523.341675	1.592334	0.004731
524.930176	1.592212	0.004718
526.518677	1.592090	0.004706
528.107056	1.591970	0.004694
529.695557	1.591851	0.004681
531.283997	1.591734	0.004669
532.872437	1.591617	0.004657
534.460938	1.591501	0.004645
536.049377	1.591387	0.004632
537.637817	1.591274	0.004620
539.226257	1.591161	0.004608
540.814758	1.591050	0.004597
542.403198	1.590940	0.004585
543.991638	1.590831	0.004573
545.580078	1.590722	0.004561
547.168518	1.590615	0.004549
548.756958	1.590509	0.004538
550.345337	1.590404	0.004526
551.933777	1.590299	0.004515
553.522217	1.590196	0.004503
555.110657	1.590094	0.004492
556.699036	1.589992	0.004480
558.287476	1.589892	0.004469
559.875854	1.589792	0.004458
561.464233	1.589693	0.004446
563.052612	1.589595	0.004435
564.640991	1.589498	0.004424
566.229309	1.589402	0.004413
567.817688	1.589307	0.004402
569.406006	1.589212	0.004391
570.994324	1.589118	0.004380
572.582642	1.589026	0.004369
574.170959	1.588934	0.004358
575.759216	1.588842	0.004348
577.347534	1.588752	0.004337
578.935791	1.588662	0.004326
580.524048	1.588573	0.004316
582.112305	1.588485	0.004305
583.700562	1.588398	0.004295
585.288757	1.588311	0.004284
586.876953	1.588225	0.004274
588.465149	1.588140	0.004263
590.053345	1.588056	0.004253
591.641479	1.587972	0.004243
593.229614	1.587889	0.004232
594.817749	1.587807	0.004222
596.405823	1.587725	0.004212
597.993958	1.587644	0.004202
599.581970	1.587564	0.004192
601.170044	1.587484	0.004182
602.758057	1.587405	0.004172
604.346069	1.587327	0.004162
605.934082	1.587250	0.004152
607.522095	1.587173	0.004142
609.109985	1.587096	0.004132
610.697937	1.587020	0.004123
612.285828	1.586945	0.004113
613.873718	1.586871	0.004103
615.461609	1.586797	0.004094
617.049438	1.586723	0.004084
618.637268	1.586651	0.004075
620.225037	1.586578	0.004065
621.812866	1.586507	0.004056
623.400574	1.586436	0.004046
624.988342	1.586365	0.004037
626.576050	1.586296	0.004028
628.163696	1.586226	0.004018
629.751343	1.586157	0.004009
631.338989	1.586089	0.004000
632.926575	1.586022	0.003991
634.514099	1.585954	0.003982
636.101685	1.585888	0.003972
637.689148	1.585822	0.003963
639.276672	1.585756	0.003954
640.864136	1.585691	0.003945
642.451538	1.585626	0.003936
644.038940	1.585562	0.003928
645.626343	1.585499	0.003919
647.213623	1.585435	0.003910
648.800903	1.585373	0.003901
650.388184	1.585311	0.003892
651.975464	1.585249	0.003884
653.562622	1.585188	0.003875
655.149780	1.585127	0.003866
656.736938	1.585067	0.003858
658.324097	1.585007	0.003849
659.911133	1.584947	0.003841
661.498169	1.584888	0.003832
663.085205	1.584830	0.003824
664.672180	1.584772	0.003815
666.259094	1.584714	0.003807
667.846008	1.584657	0.003799
669.432861	1.584600	0.003790
671.019653	1.584544	0.003782
672.606445	1.584488	0.003774
674.193237	1.584432	0.003766
675.779907	1.584377	0.003757
677.366577	1.584322	0.003749
678.953247	1.584268	0.003741
680.539856	1.584214	0.003733
682.126343	1.584161	0.003725
683.712891	1.584107	0.003717
685.299377	1.584055	0.003709
686.885803	1.584002	0.003701
688.472168	1.583950	0.003693
690.058533	1.583899	0.003685
691.644836	1.583847	0.003678
693.231079	1.583796	0.003670
694.817322	1.583746	0.003662
696.403442	1.583696	0.003654
697.989624	1.583646	0.003647
699.575684	1.583596	0.003639
701.161743	1.583547	0.003631
702.747742	1.583498	0.003624
704.333679	1.583450	0.003616
705.919556	1.583402	0.003608
707.505493	1.583354	0.003601
709.091248	1.583307	0.003593
710.677002	1.583259	0.003586
712.262756	1.583213	0.003578
713.848389	1.583166	0.003571
715.434021	1.583120	0.003564
717.019592	1.583074	0.003556
718.605103	1.583029	0.003549
720.190552	1.582983	0.003542
721.776001	1.582939	0.003534
723.361389	1.582894	0.003527
724.946655	1.582850	0.003520
726.531921	1.582806	0.003513
728.117126	1.582762	0.003506
729.702271	1.582719	0.003499
731.287415	1.582675	0.003491
732.872437	1.582633	0.003484
734.457458	1.582590	0.003477
736.042419	1.582548	0.003470
737.627319	1.582506	0.003463
739.212158	1.582464	0.003456
740.796936	1.582423	0.003450
742.381653	1.582382	0.003443
743.966309	1.582341	0.003436
745.550903	1.582300	0.003429
747.135498	1.582260	0.003422
748.719971	1.582220	0.003415
750.304443	1.582180	0.003408
751.888794	1.582141	0.003402
753.473145	1.582101	0.003395
755.057373	1.582062	0.003388
756.641602	1.582024	0.003382
758.225708	1.581985	0.003375
759.809814	1.581947	0.003368
761.393860	1.581909	0.003362
762.977783	1.581871	0.003355
764.561646	1.581833	0.003349
766.145508	1.581796	0.003342
767.729309	1.581759	0.003336
769.313049	1.581722	0.003329
770.896667	1.581686	0.003323
772.480225	1.581649	0.003316
774.063782	1.581613	0.003310
775.647217	1.581577	0.003304
777.230591	1.581542	0.003297
778.813904	1.581506	0.003291
780.397156	1.581471	0.003285
781.980347	1.581436	0.003278
783.563538	1.581401	0.003272
785.146606	1.581367	0.003266
786.729553	1.581332	0.003260
788.312500	1.581298	0.003254
789.895325	1.581264	0.003247
791.478149	1.581231	0.003241
793.060852	1.581197	0.003235
794.643433	1.581164	0.003229
796.226074	1.581131	0.003223
797.808533	1.581098	0.003217
799.390991	1.581065	0.003211
800.973328	1.581033	0.003205
802.555664	1.581000	0.003199
804.137817	1.580968	0.003193
805.720032	1.580937	0.003187
807.302124	1.580905	0.003181
808.884094	1.580873	0.003175
810.466003	1.580842	0.003169
812.047852	1.580811	0.003164
813.629639	1.580780	0.003158
815.211304	1.580749	0.003152
816.792969	1.580719	0.003146
818.374512	1.580688	0.003140
819.955933	1.580658	0.003135
821.537415	1.580628	0.003129
823.118774	1.580598	0.003123
824.700012	1.580569	0.003117
826.281128	1.580539	0.003112
827.862183	1.580510	0.003106
829.443237	1.580481	0.003101
831.024109	1.580452	0.003095
832.604980	1.580423	0.003089
834.185730	1.580394	0.003084
835.766418	1.580366	0.003078
837.347046	1.580338	0.003073
838.927612	1.580309	0.003067
840.507996	1.580281	0.003062
842.088379	1.580254	0.003056
843.668640	1.580226	0.003051
845.248840	1.580198	0.003045
846.828979	1.580171	0.003040
848.408997	1.580144	0.003035
849.988953	1.580117	0.003029
851.568848	1.580090	0.003024
853.148621	1.580063	0.003019
854.728333	1.580037	0.003013
856.307922	1.580010	0.003008
857.887390	1.579984	0.003003
859.466797	1.579958	0.002997
861.046204	1.579932	0.002992
862.625488	1.579906	0.002987
864.204590	1.579881	0.002982
865.783691	1.579855	0.002977
867.362671	1.579830	0.002971
868.941589	1.579805	0.002966
870.520386	1.579780	0.002961
872.099121	1.579755	0.002956
873.677734	1.579730	0.002951
875.256226	1.579705	0.002946
876.834778	1.579681	0.002941
878.413086	1.579656	0.002936
879.991394	1.579632	0.002931
881.569519	1.579608	0.002926
883.147644	1.579584	0.002921
884.725586	1.579560	0.002916
886.303528	1.579536	0.002911
887.881348	1.579513	0.002906
889.458984	1.579489	0.002901
891.036621	1.579466	0.002896
892.614136	1.579443	0.002891
894.191589	1.579420	0.002886
895.768860	1.579397	0.002881
897.346069	1.579374	0.002876
898.923218	1.579351	0.002872
900.500305	1.579329	0.002867
902.077271	1.579306	0.002862
903.653992	1.579284	0.002857
905.230774	1.579262	0.002852
906.807434	1.579239	0.002848
908.383972	1.579217	0.002843
909.960327	1.579196	0.002838
911.536743	1.579174	0.002834
913.112976	1.579152	0.002829
914.689087	1.579131	0.002824
916.265137	1.579109	0.002820
917.841003	1.579088	0.002815
919.416870	1.579067	0.002810
920.992554	1.579046	0.002806
922.568237	1.579025	0.002801
924.143738	1.579004	0.002796
925.719116	1.578983	0.002792
927.294556	1.578963	0.002787
928.869751	1.578942	0.002783
930.444824	1.578922	0.002778
932.019836	1.578902	0.002774
933.594604	1.578881	0.002769
935.169434	1.578861	0.002765
936.744141	1.578841	0.002760
938.318726	1.578821	0.002756
939.893188	1.578802	0.002751
941.467468	1.578782	0.002747
943.041809	1.578762	0.002743
944.615906	1.578743	0.002738
946.189941	1.578724	0.002734
947.763855	1.578704	0.002729
949.337585	1.578685	0.002725
950.911316	1.578666	0.002721
952.484985	1.578647	0.002716
954.058411	1.578628	0.002712
955.631714	1.578609	0.002708
957.204956	1.578591	0.002704
958.778137	1.578572	0.002699
960.351196	1.578554	0.002695
961.924011	1.578535	0.002691
963.496887	1.578517	0.002687
965.069519	1.578499	0.002682
966.642090	1.578480	0.002678
968.214539	1.578462	0.002674
969.786926	1.578445	0.002670
971.359070	1.578427	0.002666
972.931274	1.578409	0.002661
974.503235	1.578391	0.002657
976.075073	1.578374	0.002653
977.646790	1.578356	0.002649
979.218445	1.578339	0.002645
980.789917	1.578321	0.002641
982.361328	1.578304	0.002637
983.932617	1.578287	0.002633
985.503784	1.578270	0.002629
987.074829	1.578253	0.002625
988.645691	1.578236	0.002621
990.216492	1.578219	0.002617
991.787231	1.578202	0.002613
993.357727	1.578186	0.002609
994.928223	1.578169	0.002605
996.498413	1.578153	0.002601
998.068665	1.578136	0.002597
999.638794	1.578120	0.002593
1012.848328	1.577986	0.00256
1016.217773	1.577952	0.00255
1019.587708	1.577919	0.00254
1022.958313	1.577886	0.00253
1026.329468	1.577854	0.00252
1029.701294	1.577822	0.00252
1033.073608	1.577790	0.00251
1036.446533	1.577759	0.00250
1039.820190	1.577727	0.00249
1043.194336	1.577696	0.00248
1046.569092	1.577666	0.00248
1049.944458	1.577636	0.00247
1053.320435	1.577605	0.00246
1056.697021	1.577576	0.00245
1060.074097	1.577546	0.00245
1063.451904	1.577517	0.00244
1066.830200	1.577488	0.00243
1070.209106	1.577460	0.00242
1073.588623	1.577431	0.00242
1076.968750	1.577403	0.00241
1080.349487	1.577375	0.00240
1083.730835	1.577348	0.00239
1087.112793	1.577321	0.00239
1090.495239	1.577294	0.00238
1093.878418	1.577267	0.00237
1097.262085	1.577240	0.00236
1100.646362	1.577214	0.00236
1104.031250	1.577188	0.00235
1107.416748	1.577162	0.00234
1110.802856	1.577136	0.00234
1114.189575	1.577111	0.00233
1117.576904	1.577086	0.00232
1120.964722	1.577061	0.00232
1124.353271	1.577036	0.00231
1127.742310	1.577012	0.00230
1131.131958	1.576987	0.00230
1134.522217	1.576963	0.00229
1137.913086	1.576940	0.00228
1141.304565	1.576916	0.00228
1144.696533	1.576892	0.00227
1148.089233	1.576869	0.00226
1151.482544	1.576846	0.00226
1154.876343	1.576824	0.00225
1158.270752	1.576801	0.00224
1161.665771	1.576779	0.00224
1165.061523	1.576756	0.00223
1168.457764	1.576734	0.00222
1171.854492	1.576712	0.00222
1175.251953	1.576691	0.00221
1178.650024	1.576669	0.00221
1182.048584	1.576648	0.00220
1185.447876	1.576627	0.00219
1188.847656	1.576606	0.00219
1192.248047	1.576585	0.00218
1195.649048	1.576565	0.00217
1199.050537	1.576545	0.00217
1202.452881	1.576524	0.00216
1205.855591	1.576504	0.00216
1209.259033	1.576484	0.00215
1212.662964	1.576465	0.00214
1216.067627	1.576445	0.00214
1219.472778	1.576426	0.00213
1222.878540	1.576406	0.00213
1226.284912	1.576387	0.00212
1229.691772	1.576368	0.00212
1233.099365	1.576350	0.00211
1236.507568	1.576331	0.00210
1239.916260	1.576313	0.00210
1243.325562	1.576294	0.00209
1246.735596	1.576276	0.00209
1250.146118	1.576258	0.00208
1253.557251	1.576240	0.00208
1256.968994	1.576223	0.00207
1260.381226	1.576205	0.00207
1263.794189	1.576188	0.00206
1267.207764	1.576170	0.00205
1270.621826	1.576153	0.00205
1274.036499	1.576136	0.00204
1277.451904	1.576119	0.00204
1280.867676	1.576103	0.00203
1284.284180	1.576086	0.00203
1287.701294	1.576069	0.00202
1291.119019	1.576053	0.00202
1294.537354	1.576037	0.00201
1297.956177	1.576021	0.00201
1301.375610	1.576005	0.00200
1304.795654	1.575989	0.00200
1308.216431	1.575973	0.00199
1311.637573	1.575958	0.00199
1315.059448	1.575942	0.00198
1318.481934	1.575927	0.00198
1321.905029	1.575912	0.00197
1325.328613	1.575896	0.00197
1328.752808	1.575881	0.00196
1332.177734	1.575866	0.00196
1335.603149	1.575852	0.00195
1339.029175	1.575837	0.00195
1342.455811	1.575822	0.00194
1345.883057	1.575808	0.00194
1349.310791	1.575794	0.00193
1352.739258	1.575779	0.00193
1356.168213	1.575765	0.00192
1359.597900	1.575751	0.00192
1363.028076	1.575737	0.00191
1366.458740	1.575723	0.00191
1369.890259	1.575710	0.00190
1373.322144	1.575696	0.00190
1376.754761	1.575683	0.00189
1380.187866	1.575669	0.00189
1383.621704	1.575656	0.00188
1387.056030	1.575642	0.00188
1390.490967	1.575629	0.00188
1393.926514	1.575616	0.00187
1397.362671	1.575603	0.00187
1400.799438	1.575590	0.00186
1404.236816	1.575578	0.00186
1407.674683	1.575565	0.00185
1411.113281	1.575553	0.00185
1414.552368	1.575540	0.00184
1417.992065	1.575528	0.00184
1421.432373	1.575515	0.00184
1424.873291	1.575503	0.00183
1428.314819	1.575491	0.00183
1431.756958	1.575479	0.00182
1435.199585	1.575467	0.00182
1438.642944	1.575455	0.00181
1442.086792	1.575443	0.00181
1445.531372	1.575432	0.00180
1448.976318	1.575420	0.00180
1452.422119	1.575408	0.00180
1455.868408	1.575397	0.00179
1459.315186	1.575386	0.00179
1462.762695	1.575374	0.00178
1466.210693	1.575363	0.00178
1469.659424	1.575352	0.00178
1473.108643	1.575341	0.00177
1476.558350	1.575330	0.00177
1480.008911	1.575319	0.00176
1483.459839	1.575308	0.00176
1486.911499	1.575297	0.00176
1490.363770	1.575287	0.00175
1493.816650	1.575276	0.00175
1497.270020	1.575266	0.00174
1500.723999	1.575255	0.00174
1504.178589	1.575245	0.00174
1507.633789	1.575234	0.00173
1511.089600	1.575224	0.00173
1514.546021	1.575214	0.00172
1518.002930	1.575204	0.00172
1521.460571	1.575194	0.00172
1524.918701	1.575184	0.00171
1528.377441	1.575174	0.00171
1531.836792	1.575164	0.00170
1535.296753	1.575154	0.00170
1538.757324	1.575144	0.00170
1542.218506	1.575135	0.00169
1545.680176	1.575125	0.00169
1549.142456	1.575115	0.00169
1552.605469	1.575106	0.00168
1556.068970	1.575097	0.00168
1559.533081	1.575087	0.00167
1562.997803	1.575078	0.00167
1566.463135	1.575069	0.00167
1569.928955	1.575060	0.00166
1573.395508	1.575050	0.00166
1576.862549	1.575041	0.00166
1580.330322	1.575032	0.00165
1583.798584	1.575023	0.00165
1587.267456	1.575014	0.00165
1590.736938	1.575006	0.00164
1594.207031	1.574997	0.00164
1597.677612	1.574988	0.00164
1601.148926	1.574980	0.00163
1604.620850	1.574971	0.00163
1608.093140	1.574962	0.00162
1611.566162	1.574954	0.00162
1615.039795	1.574945	0.00162
1618.514038	1.574937	0.00161
1621.989014	1.574929	0.00161
1625.464355	1.574920	0.00161
1628.940308	1.574912	0.00160
1632.416992	1.574904	0.00160
1635.894165	1.574896	0.00160
1639.371826	1.574888	0.00159
1642.850342	1.574880	0.00159
1646.329346	1.574872	0.00159
1649.808960	1.574864	0.00158
1653.289063	1.574856	0.00158
1656.769897	1.574848	0.00158
1660.251221	1.574840	0.00157
1663.733154	1.574833	0.00157
1667.215820	1.574825	0.00157
1670.698853	1.574817	0.00156
1674.182617	1.574810	0.00156
1677.666992	1.574802	0.00156
1681.151978	1.574795	0.00155
1684.637451	1.574787	0.00155
1688.123413	1.574780	0.00155