Opt. Const. of Gen-Osc vs. nm
Wavelength (nm)	n	k
245.776154	2.477227	0.011132
247.357712	2.469211	0.011062
248.939362	2.461435	0.010993
250.521072	2.453889	0.010924
252.102859	2.446564	0.010856
253.684723	2.439451	0.010788
255.266678	2.432540	0.010721
256.848694	2.425823	0.010655
258.430786	2.419294	0.010590
260.012939	2.412944	0.010525
261.595184	2.406766	0.010460
263.177490	2.400754	0.010397
264.759857	2.394902	0.010334
266.342346	2.389204	0.010271
267.924866	2.383653	0.010210
269.507477	2.378245	0.010148
271.090149	2.372974	0.010088
272.672882	2.367836	0.010028
274.255676	2.362825	0.009969
275.838562	2.357937	0.009910
277.421509	2.353169	0.009852
279.004547	2.348515	0.009795
280.587616	2.343972	0.009738
282.170776	2.339537	0.009682
283.753998	2.335205	0.009626
285.337280	2.330974	0.009571
286.920654	2.326840	0.009517
288.504089	2.322799	0.009463
290.087555	2.318850	0.009409
291.671112	2.314989	0.009356
293.254730	2.311213	0.009304
294.838409	2.307519	0.009252
296.422180	2.303906	0.009201
298.005981	2.300371	0.009150
299.589844	2.296911	0.009100
301.173767	2.293524	0.009050
302.757782	2.290207	0.009001
304.341858	2.286960	0.008953
305.925964	2.283780	0.008904
307.510162	2.280665	0.008857
309.094391	2.277612	0.008810
310.678680	2.274622	0.008763
312.263062	2.271690	0.008717
313.847473	2.268817	0.008671
315.431946	2.266000	0.008625
317.016510	2.263238	0.008581
318.601105	2.260529	0.008536
320.185730	2.257872	0.008492
321.770447	2.255266	0.008449
323.355225	2.252709	0.008405
324.940063	2.250200	0.008363
326.524963	2.247737	0.008320
328.109863	2.245320	0.008279
329.694885	2.242947	0.008237
331.279907	2.240617	0.008196
332.865021	2.238329	0.008155
334.450165	2.236083	0.008115
336.035370	2.233876	0.008075
337.620636	2.231708	0.008036
339.205933	2.229578	0.007996
340.791321	2.227486	0.007958
342.376709	2.225430	0.007919
343.962189	2.223409	0.007881
345.547699	2.221422	0.007843
347.133240	2.219469	0.007806
348.718872	2.217550	0.007769
350.304535	2.215662	0.007732
351.890259	2.213805	0.007696
353.476013	2.211980	0.007660
355.061829	2.210184	0.007625
356.647675	2.208418	0.007589
358.233582	2.206680	0.007554
359.819550	2.204970	0.007519
361.405548	2.203288	0.007485
362.991577	2.201632	0.007451
364.577698	2.200003	0.007417
366.163818	2.198399	0.007384
367.749969	2.196820	0.007351
369.336212	2.195266	0.007318
370.922485	2.193736	0.007285
372.508789	2.192229	0.007253
374.095154	2.190746	0.007221
375.681519	2.189284	0.007189
377.267975	2.187845	0.007158
378.854431	2.186427	0.007126
380.440979	2.185031	0.007096
382.027527	2.183655	0.007065
383.614105	2.182299	0.007034
385.200745	2.180964	0.007004
386.787445	2.179647	0.006974
388.374146	2.178350	0.006945
389.960907	2.177072	0.006915
391.547699	2.175812	0.006886
393.134552	2.174570	0.006857
394.721405	2.173345	0.006829
396.308289	2.172138	0.006800
397.895264	2.170948	0.006772
399.482239	2.169774	0.006744
401.069244	2.168616	0.006717
402.656311	2.167475	0.006689
404.243378	2.166349	0.006662
405.830505	2.165239	0.006635
407.417664	2.164144	0.006608
409.004822	2.163063	0.006581
410.592041	2.161997	0.006555
412.179291	2.160945	0.006529
413.766541	2.159908	0.006503
415.353912	2.158884	0.006477
416.941223	2.157874	0.006451
418.528625	2.156876	0.006426
420.116028	2.155892	0.006401
421.703461	2.154921	0.006376
423.290924	2.153962	0.006351
424.878418	2.153016	0.006326
426.465912	2.152082	0.006302
428.053467	2.151159	0.006278
429.641052	2.150249	0.006254
431.228668	2.149349	0.006230
432.816315	2.148462	0.006206
434.403961	2.147585	0.006183
435.991638	2.146719	0.006160
437.579346	2.145864	0.006136
439.167084	2.145020	0.006113
440.754822	2.144186	0.006091
442.342621	2.143362	0.006068
443.930420	2.142548	0.006046
445.518250	2.141744	0.006023
447.106110	2.140949	0.006001
448.694000	2.140164	0.005979
450.281891	2.139389	0.005957
451.869812	2.138623	0.005936
453.457764	2.137866	0.005914
455.045715	2.137118	0.005893
456.633698	2.136378	0.005872
458.221680	2.135648	0.005851
459.809723	2.134925	0.005830
461.397766	2.134212	0.005809
462.985840	2.133506	0.005789
464.573883	2.132808	0.005768
466.162018	2.132119	0.005748
467.750092	2.131437	0.005728
469.338226	2.130764	0.005708
470.926361	2.130097	0.005688
472.514557	2.129439	0.005668
474.102722	2.128787	0.005649
475.690918	2.128143	0.005629
477.279144	2.127506	0.005610
478.867340	2.126877	0.005591
480.455566	2.126254	0.005572
482.043854	2.125638	0.005553
483.632141	2.125028	0.005534
485.220367	2.124426	0.005515
486.808685	2.123830	0.005497
488.396973	2.123240	0.005478
489.985291	2.122657	0.005460
491.573578	2.122080	0.005442
493.161957	2.121509	0.005424
494.750305	2.120944	0.005406
496.338623	2.120385	0.005388
497.927002	2.119833	0.005370
499.515381	2.119285	0.005353
501.103760	2.118744	0.005335
502.692139	2.118208	0.005318
504.280518	2.117678	0.005301
505.868958	2.117154	0.005284
507.457336	2.116635	0.005267
509.045746	2.116121	0.005250
510.634186	2.115613	0.005233
512.222595	2.115109	0.005216
513.811035	2.114611	0.005200
515.399475	2.114118	0.005183
516.987915	2.113630	0.005167
518.576355	2.113147	0.005151
520.164795	2.112668	0.005135
521.753296	2.112195	0.005119
523.341675	2.111726	0.005103
524.930176	2.111261	0.005087
526.518677	2.110802	0.005071
528.107056	2.110347	0.005055
529.695557	2.109896	0.005040
531.283997	2.109450	0.005024
532.872437	2.109008	0.005009
534.460938	2.108570	0.004994
536.049377	2.108137	0.004978
537.637817	2.107708	0.004963
539.226257	2.107283	0.004948
540.814758	2.106862	0.004933
542.403198	2.106445	0.004919
543.991638	2.106032	0.004904
545.580078	2.105623	0.004889
547.168518	2.105218	0.004875
548.756958	2.104817	0.004860
550.345337	2.104419	0.004846
551.933777	2.104025	0.004832
553.522217	2.103635	0.004817
555.110657	2.103249	0.004803
556.699036	2.102866	0.004789
558.287476	2.102486	0.004775
559.875854	2.102110	0.004761
561.464233	2.101738	0.004748
563.052612	2.101369	0.004734
564.640991	2.101003	0.004720
566.229309	2.100641	0.004707
567.817688	2.100282	0.004693
569.406006	2.099926	0.004680
570.994324	2.099573	0.004667
572.582642	2.099224	0.004653
574.170959	2.098877	0.004640
575.759216	2.098534	0.004627
577.347534	2.098194	0.004614
578.935791	2.097857	0.004601
580.524048	2.097523	0.004588
582.112305	2.097192	0.004575
583.700562	2.096863	0.004563
585.288757	2.096538	0.004550
586.876953	2.096215	0.004537
588.465149	2.095895	0.004525
590.053345	2.095578	0.004512
591.641479	2.095264	0.004500
593.229614	2.094952	0.004488
594.817749	2.094643	0.004476
596.405823	2.094337	0.004463
597.993958	2.094033	0.004451
599.581970	2.093732	0.004439
601.170044	2.093434	0.004427
602.758057	2.093138	0.004415
604.346069	2.092844	0.004403
605.934082	2.092553	0.004392
607.522095	2.092265	0.004380
609.109985	2.091979	0.004368
610.697937	2.091695	0.004357
612.285828	2.091413	0.004345
613.873718	2.091135	0.004334
615.461609	2.090858	0.004322
617.049438	2.090583	0.004311
618.637268	2.090311	0.004300
620.225037	2.090041	0.004288
621.812866	2.089773	0.004277
623.400574	2.089508	0.004266
624.988342	2.089244	0.004255
626.576050	2.088983	0.004244
628.163696	2.088724	0.004233
629.751343	2.088467	0.004222
631.338989	2.088212	0.004211
632.926575	2.087959	0.004201
634.514099	2.087708	0.004190
636.101685	2.087459	0.004179
637.689148	2.087212	0.004169
639.276672	2.086967	0.004158
640.864136	2.086724	0.004148
642.451538	2.086482	0.004137
644.038940	2.086243	0.004127
645.626343	2.086006	0.004116
647.213623	2.085770	0.004106
648.800903	2.085536	0.004096
650.388184	2.085304	0.004086
651.975464	2.085074	0.004076
653.562622	2.084846	0.004066
655.149780	2.084620	0.004055
656.736938	2.084395	0.004046
658.324097	2.084172	0.004036
659.911133	2.083950	0.004026
661.498169	2.083730	0.004016
663.085205	2.083513	0.004006
664.672180	2.083296	0.003996
666.259094	2.083081	0.003987
667.846008	2.082868	0.003977
669.432861	2.082657	0.003967
671.019653	2.082447	0.003958
672.606445	2.082238	0.003948
674.193237	2.082032	0.003939
675.779907	2.081826	0.003930
677.366577	2.081623	0.003920
678.953247	2.081421	0.003911
680.539856	2.081220	0.003902
682.126343	2.081021	0.003892
683.712891	2.080823	0.003883
685.299377	2.080626	0.003874
686.885803	2.080432	0.003865
688.472168	2.080238	0.003856
690.058533	2.080046	0.003847
691.644836	2.079856	0.003838
693.231079	2.079666	0.003829
694.817322	2.079479	0.003820
696.403442	2.079292	0.003811
697.989624	2.079107	0.003802
699.575684	2.078923	0.003794
701.161743	2.078740	0.003785
702.747742	2.078559	0.003776
704.333679	2.078379	0.003768
705.919556	2.078200	0.003759
707.505493	2.078023	0.003750
709.091248	2.077847	0.003742
710.677002	2.077672	0.003733
712.262756	2.077498	0.003725
713.848389	2.077326	0.003717
715.434021	2.077154	0.003708
717.019592	2.076984	0.003700
718.605103	2.076816	0.003692
720.190552	2.076648	0.003683
721.776001	2.076481	0.003675
723.361389	2.076316	0.003667
724.946655	2.076152	0.003659
726.531921	2.075989	0.003651
728.117126	2.075826	0.003643
729.702271	2.075666	0.003635
731.287415	2.075506	0.003627
732.872437	2.075347	0.003619
734.457458	2.075190	0.003611
736.042419	2.075033	0.003603
737.627319	2.074878	0.003595
739.212158	2.074723	0.003587
740.796936	2.074570	0.003579
742.381653	2.074417	0.003572
743.966309	2.074266	0.003564
745.550903	2.074116	0.003556
747.135498	2.073966	0.003549
748.719971	2.073818	0.003541
750.304443	2.073671	0.003533
751.888794	2.073524	0.003526
753.473145	2.073379	0.003518
755.057373	2.073235	0.003511
756.641602	2.073091	0.003503
758.225708	2.072948	0.003496
759.809814	2.072807	0.003488
761.393860	2.072666	0.003481
762.977783	2.072526	0.003474
764.561646	2.072387	0.003467
766.145508	2.072250	0.003459
767.729309	2.072113	0.003452
769.313049	2.071976	0.003445
770.896667	2.071841	0.003438
772.480225	2.071707	0.003430
774.063782	2.071573	0.003423
775.647217	2.071440	0.003416
777.230591	2.071309	0.003409
778.813904	2.071178	0.003402
780.397156	2.071048	0.003395
781.980347	2.070918	0.003388
783.563538	2.070790	0.003381
785.146606	2.070662	0.003374
786.729553	2.070535	0.003368
788.312500	2.070409	0.003361
789.895325	2.070284	0.003354
791.478149	2.070159	0.003347
793.060852	2.070035	0.003340
794.643433	2.069912	0.003334
796.226074	2.069790	0.003327
797.808533	2.069669	0.003320
799.390991	2.069548	0.003313
800.973328	2.069428	0.003307
802.555664	2.069309	0.003300
804.137817	2.069191	0.003294
805.720032	2.069073	0.003287
807.302124	2.068956	0.003281
808.884094	2.068840	0.003274
810.466003	2.068724	0.003268
812.047852	2.068609	0.003261
813.629639	2.068495	0.003255
815.211304	2.068382	0.003248
816.792969	2.068269	0.003242
818.374512	2.068157	0.003236
819.955933	2.068045	0.003229
821.537415	2.067935	0.003223
823.118774	2.067824	0.003217
824.700012	2.067715	0.003211
826.281128	2.067606	0.003204
827.862183	2.067498	0.003198
829.443237	2.067391	0.003192
831.024109	2.067284	0.003186
832.604980	2.067178	0.003180
834.185730	2.067072	0.003174
835.766418	2.066967	0.003168
837.347046	2.066863	0.003161
838.927612	2.066759	0.003155
840.507996	2.066656	0.003149
842.088379	2.066554	0.003143
843.668640	2.066452	0.003138
845.248840	2.066350	0.003132
846.828979	2.066250	0.003126
848.408997	2.066149	0.003120
849.988953	2.066050	0.003114
851.568848	2.065951	0.003108
853.148621	2.065853	0.003102
854.728333	2.065755	0.003096
856.307922	2.065658	0.003091
857.887390	2.065561	0.003085
859.466797	2.065465	0.003079
861.046204	2.065369	0.003073
862.625488	2.065274	0.003068
864.204590	2.065180	0.003062
865.783691	2.065086	0.003056
867.362671	2.064992	0.003051
868.941589	2.064900	0.003045
870.520386	2.064807	0.003040
872.099121	2.064715	0.003034
873.677734	2.064624	0.003029
875.256226	2.064533	0.003023
876.834778	2.064443	0.003018
878.413086	2.064353	0.003012
879.991394	2.064264	0.003007
881.569519	2.064175	0.003001
883.147644	2.064087	0.002996
884.725586	2.063999	0.002990
886.303528	2.063912	0.002985
887.881348	2.063825	0.002980
889.458984	2.063739	0.002974
891.036621	2.063653	0.002969
892.614136	2.063567	0.002964
894.191589	2.063483	0.002958
895.768860	2.063398	0.002953
897.346069	2.063314	0.002948
898.923218	2.063231	0.002943
900.500305	2.063148	0.002937
902.077271	2.063065	0.002932
903.653992	2.062983	0.002927
905.230774	2.062901	0.002922
906.807434	2.062820	0.002917
908.383972	2.062739	0.002912
909.960327	2.062659	0.002907
911.536743	2.062579	0.002901
913.112976	2.062499	0.002896
914.689087	2.062420	0.002891
916.265137	2.062341	0.002886
917.841003	2.062263	0.002881
919.416870	2.062186	0.002876
920.992554	2.062108	0.002871
922.568237	2.062031	0.002866
924.143738	2.061954	0.002862
925.719116	2.061878	0.002857
927.294556	2.061802	0.002852
928.869751	2.061727	0.002847
930.444824	2.061652	0.002842
932.019836	2.061578	0.002837
933.594604	2.061503	0.002832
935.169434	2.061430	0.002827
936.744141	2.061356	0.002823
938.318726	2.061283	0.002818
939.893188	2.061211	0.002813
941.467468	2.061138	0.002808
943.041809	2.061066	0.002804
944.615906	2.060995	0.002799
946.189941	2.060924	0.002794
947.763855	2.060853	0.002790
949.337585	2.060783	0.002785
950.911316	2.060713	0.002780
952.484985	2.060643	0.002776
954.058411	2.060574	0.002771
955.631714	2.060505	0.002766
957.204956	2.060436	0.002762
958.778137	2.060368	0.002757
960.351196	2.060300	0.002753
961.924011	2.060232	0.002748
963.496887	2.060165	0.002744
965.069519	2.060098	0.002739
966.642090	2.060032	0.002735
968.214539	2.059965	0.002730
969.786926	2.059900	0.002726
971.359070	2.059834	0.002721
972.931274	2.059769	0.002717
974.503235	2.059704	0.002712
976.075073	2.059639	0.002708
977.646790	2.059575	0.002703
979.218445	2.059511	0.002699
980.789917	2.059448	0.002695
982.361328	2.059384	0.002690
983.932617	2.059321	0.002686
985.503784	2.059259	0.002682
987.074829	2.059196	0.002677
988.645691	2.059134	0.002673
990.216492	2.059073	0.002669
991.787231	2.059011	0.002665
993.357727	2.058950	0.002660
994.928223	2.058890	0.002656
996.498413	2.058829	0.002652
998.068665	2.058769	0.002648
999.638794	2.058709	0.002644
1012.848328	2.058216	0.00260
1016.217773	2.058094	0.00260
1019.587708	2.057972	0.00259
1022.958313	2.057852	0.00258
1026.329468	2.057733	0.00257
1029.701294	2.057616	0.00256
1033.073608	2.057499	0.00255
1036.446533	2.057384	0.00254
1039.820190	2.057269	0.00254
1043.194336	2.057156	0.00253
1046.569092	2.057044	0.00252
1049.944458	2.056933	0.00251
1053.320435	2.056823	0.00250
1056.697021	2.056714	0.00250
1060.074097	2.056606	0.00249
1063.451904	2.056499	0.00248
1066.830200	2.056393	0.00247
1070.209106	2.056288	0.00246
1073.588623	2.056185	0.00246
1076.968750	2.056082	0.00245
1080.349487	2.055980	0.00244
1083.730835	2.055879	0.00243
1087.112793	2.055779	0.00242
1090.495239	2.055680	0.00242
1093.878418	2.055582	0.00241
1097.262085	2.055485	0.00240
1100.646362	2.055388	0.00239
1104.031250	2.055293	0.00239
1107.416748	2.055198	0.00238
1110.802856	2.055105	0.00237
1114.189575	2.055012	0.00237
1117.576904	2.054920	0.00236
1120.964722	2.054829	0.00235
1124.353271	2.054738	0.00234
1127.742310	2.054649	0.00234
1131.131958	2.054560	0.00233
1134.522217	2.054472	0.00232
1137.913086	2.054385	0.00232
1141.304565	2.054298	0.00231
1144.696533	2.054213	0.00230
1148.089233	2.054128	0.00229
1151.482544	2.054044	0.00229
1154.876343	2.053961	0.00228
1158.270752	2.053878	0.00227
1161.665771	2.053796	0.00227
1165.061523	2.053715	0.00226
1168.457764	2.053634	0.00225
1171.854492	2.053555	0.00225
1175.251953	2.053475	0.00224
1178.650024	2.053397	0.00223
1182.048584	2.053319	0.00223
1185.447876	2.053242	0.00222
1188.847656	2.053166	0.00222
1192.248047	2.053090	0.00221
1195.649048	2.053015	0.00220
1199.050537	2.052940	0.00220
1202.452881	2.052866	0.00219
1205.855591	2.052793	0.00218
1209.259033	2.052721	0.00218
1212.662964	2.052649	0.00217
1216.067627	2.052577	0.00217
1219.472778	2.052506	0.00216
1222.878540	2.052436	0.00215
1226.284912	2.052366	0.00215
1229.691772	2.052297	0.00214
1233.099365	2.052229	0.00214
1236.507568	2.052161	0.00213
1239.916260	2.052094	0.00212
1243.325562	2.052027	0.00212
1246.735596	2.051960	0.00211
1250.146118	2.051895	0.00211
1253.557251	2.051829	0.00210
1256.968994	2.051765	0.00209
1260.381226	2.051701	0.00209
1263.794189	2.051637	0.00208
1267.207764	2.051574	0.00208
1270.621826	2.051511	0.00207
1274.036499	2.051449	0.00207
1277.451904	2.051387	0.00206
1280.867676	2.051326	0.00206
1284.284180	2.051265	0.00205
1287.701294	2.051205	0.00204
1291.119019	2.051146	0.00204
1294.537354	2.051086	0.00203
1297.956177	2.051028	0.00203
1301.375610	2.050969	0.00202
1304.795654	2.050911	0.00202
1308.216431	2.050854	0.00201
1311.637573	2.050797	0.00201
1315.059448	2.050740	0.00200
1318.481934	2.050684	0.00200
1321.905029	2.050629	0.00199
1325.328613	2.050573	0.00199
1328.752808	2.050519	0.00198
1332.177734	2.050464	0.00198
1335.603149	2.050410	0.00197
1339.029175	2.050357	0.00197
1342.455811	2.050303	0.00196
1345.883057	2.050251	0.00196
1349.310791	2.050198	0.00195
1352.739258	2.050146	0.00195
1356.168213	2.050095	0.00194
1359.597900	2.050044	0.00194
1363.028076	2.049993	0.00193
1366.458740	2.049942	0.00193
1369.890259	2.049892	0.00192
1373.322144	2.049843	0.00192
1376.754761	2.049793	0.00191
1380.187866	2.049744	0.00191
1383.621704	2.049696	0.00190
1387.056030	2.049647	0.00190
1390.490967	2.049599	0.00189
1393.926514	2.049552	0.00189
1397.362671	2.049505	0.00188
1400.799438	2.049458	0.00188
1404.236816	2.049411	0.00187
1407.674683	2.049365	0.00187
1411.113281	2.049319	0.00186
1414.552368	2.049274	0.00186
1417.992065	2.049229	0.00186
1421.432373	2.049184	0.00185
1424.873291	2.049139	0.00185
1428.314819	2.049095	0.00184
1431.756958	2.049051	0.00184
1435.199585	2.049008	0.00183
1438.642944	2.048964	0.00183
1442.086792	2.048921	0.00182
1445.531372	2.048879	0.00182
1448.976318	2.048836	0.00182
1452.422119	2.048794	0.00181
1455.868408	2.048752	0.00181
1459.315186	2.048711	0.00180
1462.762695	2.048670	0.00180
1466.210693	2.048629	0.00179
1469.659424	2.048588	0.00179
1473.108643	2.048548	0.00179
1476.558350	2.048508	0.00178
1480.008911	2.048468	0.00178
1483.459839	2.048428	0.00177
1486.911499	2.048389	0.00177
1490.363770	2.048350	0.00176
1493.816650	2.048311	0.00176
1497.270020	2.048273	0.00176
1500.723999	2.048235	0.00175
1504.178589	2.048197	0.00175
1507.633789	2.048159	0.00174
1511.089600	2.048122	0.00174
1514.546021	2.048084	0.00174
1518.002930	2.048048	0.00173
1521.460571	2.048011	0.00173
1524.918701	2.047975	0.00172
1528.377441	2.047938	0.00172
1531.836792	2.047902	0.00172
1535.296753	2.047867	0.00171
1538.757324	2.047831	0.00171
1542.218506	2.047796	0.00170
1545.680176	2.047761	0.00170
1549.142456	2.047726	0.00170
1552.605469	2.047692	0.00169
1556.068970	2.047657	0.00169
1559.533081	2.047623	0.00169
1562.997803	2.047590	0.00168
1566.463135	2.047556	0.00168
1569.928955	2.047523	0.00167
1573.395508	2.047489	0.00167
1576.862549	2.047456	0.00167
1580.330322	2.047423	0.00166
1583.798584	2.047391	0.00166
1587.267456	2.047359	0.00166
1590.736938	2.047326	0.00165
1594.207031	2.047294	0.00165
1597.677612	2.047263	0.00165
1601.148926	2.047231	0.00164
1604.620850	2.047200	0.00164
1608.093140	2.047169	0.00163
1611.566162	2.047138	0.00163
1615.039795	2.047107	0.00163
1618.514038	2.047076	0.00162
1621.989014	2.047046	0.00162
1625.464355	2.047016	0.00162
1628.940308	2.046986	0.00161
1632.416992	2.046956	0.00161
1635.894165	2.046927	0.00161
1639.371826	2.046897	0.00160
1642.850342	2.046868	0.00160
1646.329346	2.046839	0.00160
1649.808960	2.046810	0.00159
1653.289063	2.046781	0.00159
1656.769897	2.046753	0.00159
1660.251221	2.046725	0.00158
1663.733154	2.046696	0.00158
1667.215820	2.046668	0.00158
1670.698853	2.046641	0.00157
1674.182617	2.046613	0.00157
1677.666992	2.046585	0.00157
1681.151978	2.046558	0.00156
1684.637451	2.046531	0.00156
1688.123413	2.046504	0.00156